choice,RT,trial,reward
1,0.31852061870290926,4,1
1,0.2817068174417882,5,1
1,0.6281590787425345,8,1
1,0.657423355759676,11,1
1,0.5047218269817951,12,1
1,0.5249878170964032,13,1
1,0.4185178000762287,15,1
1,0.1924481707230462,16,1
1,0.16451564682409903,17,0
1,0.4372865337724447,18,1
1,0.18474027455527509,19,0
1,0.20297496465929815,20,1
1,1.4407633621076565,21,1
1,0.29516949048141705,22,1
1,0.28989228238429615,24,1
1,0.24243212292209057,26,1
1,0.5282570872645761,27,1
1,0.5859079527559657,29,1
1,0.4999941657928697,31,1
1,0.23921568887361158,32,1
1,0.16819959186563158,33,1
1,0.17150289583345665,34,1
1,0.48042673002737907,35,1
1,0.17503154975013568,36,1
1,0.22740571244249572,37,1
1,0.17123589455291513,38,1
1,0.29980178869350993,39,1
1,0.3413383397138105,40,0
1,0.3530623668933191,43,1
1,0.30457510644553204,44,1
1,0.19575142985063515,45,1
1,0.1364776975542589,46,1
1,0.22308808984195,49,1
1,0.16658241351035094,51,1
1,0.24991372737743972,52,1
1,1.5217626342669903,53,0
1,0.1417668690311144,54,1
1,0.3167944848450949,55,1
1,0.1412192385929119,56,1
1,0.5515616183866641,57,1
1,0.24362192070166966,58,1
1,0.1375921384017401,61,1
1,0.17432487012238146,62,0
1,0.14666859437943938,63,1
1,0.615915750629137,64,1
1,0.3436058178879903,65,1
1,0.26897873243755877,66,1
1,0.21111094119369694,67,1
1,0.23633109450225345,68,1
1,0.6414744463019979,69,1
1,0.5268176769170837,70,1
1,0.14945947523872255,71,1
1,0.3920671406625227,72,1
1,0.2555636311656054,73,1
1,0.6143284809313807,74,1
1,0.20005306150533547,75,1
1,0.2730757627690175,76,1
1,0.25544392188944803,77,1
1,0.3237290373139202,79,1
1,0.24936256308213825,81,1
1,0.3829862082976372,82,1
1,0.18084139269787267,83,1
1,0.1413680444614308,84,1
1,0.26026982070854976,85,1
1,0.16254586477400831,86,1
1,0.16404328424359796,87,1
1,0.31395200711004395,88,1
1,0.20604276790666506,93,1
1,0.3130232054617114,94,1
1,0.39395056943312895,96,1
1,0.7323211377977357,98,1
1,0.5284153690168267,99,1
1,0.22445980946884064,100,0
1,0.6567399914512217,102,1
1,0.3083731627140849,103,0
1,0.46062764530384315,104,1
1,0.5086274538732448,105,1
1,0.15931957008740844,106,1
1,0.12424235971595894,107,1
1,0.3625938607328928,110,1
1,0.3191656105065505,111,1
1,0.1970895848488954,112,1
1,0.14921197188118898,113,1
1,0.3397719699107493,114,1
1,0.32039924877293136,115,1
1,0.21683390679465764,116,0
1,0.8772158580709095,120,1
1,0.1921143104246943,121,1
1,0.17938908267212125,123,1
1,0.2764777891494823,124,1
1,0.2870258899734679,125,1
1,0.22223079186504488,126,1
1,0.3902757419990439,128,0
1,0.5195106490688619,129,0
1,0.32022061518836925,130,1
1,0.32138594445805785,132,1
1,0.2534320488875388,133,1
1,0.44558588559534523,134,1
1,0.18179042214051946,135,0
1,0.19981186084733268,136,1
1,0.1787681824767743,137,1
1,0.4167595333109084,138,1
1,0.23882549551888882,140,1
1,0.2112502594261731,141,1
1,0.44567471039877216,142,1
1,0.34247807094566246,143,1
1,0.3269963976767652,146,1
1,0.1930634224139593,147,1
1,0.22762758793040724,149,1
1,0.3580326863232044,150,0
1,0.2760598883908888,151,1
1,0.3875021858499891,153,1
1,0.39444042429789333,154,1
1,0.5072637012947949,155,1
1,0.20470503173087776,156,1
1,0.2285577678632438,157,1
1,0.23027701184510524,159,1
1,0.23958580161866758,160,1
1,0.47392352671048155,161,0
1,0.9086283932750429,162,1
1,0.1300420693822137,164,1
1,0.40141742584106477,165,0
1,0.17482966705503536,169,0
1,0.23778641837804645,170,1
1,0.4158889045209857,171,1
1,0.14883448980761535,172,1
1,0.5197678589429625,176,1
1,1.1150080528208666,177,1
1,0.19308289636756631,178,0
1,0.2851316415467702,179,1
1,0.28990874451281895,180,1
1,0.24128327677500452,182,0
1,0.25875586257341504,183,1
1,0.12707112906735554,184,1
1,0.2852820925458041,185,1
1,0.3573007096106269,186,0
1,0.25534307332349965,187,1
1,0.2232994688218618,188,1
1,0.38612569649083006,191,1
1,0.27807822825318346,192,1
1,0.15394845139668178,194,1
1,0.281881434287937,195,1
1,0.21420517164860434,196,0
1,0.6633965944621202,197,0
1,0.23058217971767364,198,1
1,0.174205762779346,199,1
1,0.4159300282000617,200,1
1,0.2575741187623457,201,1
1,0.4508416537417518,202,1
1,0.19929840515451558,205,1
1,0.14792209602353304,206,1
1,0.49074709636051017,207,1
1,0.2988440034844209,208,1
1,0.23526207836150573,209,1
1,0.2531573161482407,210,1
1,0.2220720860756735,212,1
1,0.32740092141952837,214,1
1,0.1955108155142737,215,1
1,0.5127672823097104,217,0
1,0.25282812944673305,218,1
1,0.17352780651548091,219,1
1,0.47611039006991446,221,0
1,0.64602534512861,223,0
1,0.2878712233685365,224,1
1,0.1636358110594798,226,1
1,0.26567764442054387,229,1
1,0.14295671473498195,230,1
1,0.42887090997421906,231,1
1,0.6602763121402455,234,1
1,0.3621795589107896,235,1
1,0.34745727126859977,236,1
1,0.2792176708412251,237,1
1,0.3474401385680835,238,1
1,0.44842496553866273,240,1
1,0.20509539989814324,241,1
1,0.1618088558064312,242,1
1,0.22159239691967392,243,1
1,0.30347376787596697,244,1
1,0.19047704818358183,246,1
1,0.20326744767388163,247,1
1,0.34597669037080137,248,1
1,0.5290514876304548,249,1
1,0.635253105982818,250,0
1,0.3685144929143432,251,0
1,0.18290477205552683,252,1
1,0.17448218775351965,253,0
1,0.1413434013692478,254,1
1,0.47662590353401263,255,0
1,0.4540647683622469,257,1
1,0.17081294015669735,258,1
1,0.26604365030002924,259,1
1,0.15581581184178445,262,1
1,0.19053555881549192,264,1
1,0.2573246659330378,265,1
1,0.41679342424785076,267,1
1,0.22848844360726372,269,1
1,0.2876400806038203,270,0
1,0.5959693203635283,271,1
1,0.3582729156897414,272,1
1,0.314218170010837,273,1
1,0.1519147529643863,274,1
1,0.505922160615404,275,0
1,0.17556689401551825,276,1
1,0.213869519588532,279,1
1,0.22270719451848717,281,0
1,0.1651726503367537,283,1
1,0.4485632776572436,285,1
1,0.2064138569798361,286,0
1,0.24868909949480644,287,0
1,0.15138985107765524,288,0
1,0.17573733930318008,289,0
1,0.1614594815734965,291,0
1,0.27936782344050337,292,1
1,0.4468561530874338,293,1
1,0.13747169144686136,295,1
1,0.34253024676973964,296,1
1,0.18860229487172409,297,0
1,0.6827059625137607,299,1
1,0.25831211791269165,300,1
1,0.1847746669851419,302,1
1,0.9666486574120454,304,1
1,0.3243149878697154,306,1
1,0.40694088845227117,307,0
1,0.4731384302242616,309,1
1,0.15598839242555892,310,1
1,0.43924723988805536,311,1
1,0.3866862037098563,313,1
1,0.3103548830844855,314,1
1,0.19836966841586615,316,1
1,0.24414775773556183,318,1
1,0.5050274355757426,319,1
1,0.3340735631219451,320,1
1,0.1746870200596029,321,1
1,0.3407116426461846,322,1
1,0.27666136284072407,326,1
1,0.179945781364252,327,0
1,0.31495063710782994,328,1
1,0.4730908328872531,329,0
1,0.615325189425333,330,1
1,1.1416623447599004,331,1
1,0.39872426500618713,333,1
1,0.22269259271320216,334,1
1,0.33770897192012417,335,0
1,0.30824956191163605,337,1
1,0.35502559591732136,338,1
1,0.388407053332465,340,0
1,0.39521598611381736,341,1
1,0.37302033614758795,343,1
1,0.21112477317878608,344,1
1,0.5295335046881182,345,1
1,0.304530546222334,348,1
1,1.034358804356081,349,1
1,0.3438698585027748,350,1
1,0.2035030227011342,351,1
1,0.33960163894242223,352,0
1,0.27842352345488236,353,0
1,0.3601786820913623,355,1
1,0.21545838411862128,356,1
1,0.19801492381339209,357,1
1,0.67728787037198,359,1
1,0.5113024949683542,360,1
1,0.24251976585898527,361,1
1,0.3700922888399325,362,1
1,0.16355745130500948,363,0
1,0.15847530118156325,364,1
1,0.22926903642159235,365,1
1,0.39852656847817963,366,0
1,0.3972097498117746,369,1
1,0.27062369390617785,370,1
1,0.5300284461800746,371,0
1,0.17224795492919795,372,0
1,0.22238128892411158,375,0
1,0.15709547407241053,378,1
1,0.27645818334880484,379,1
1,0.2167337094389008,380,0
1,0.43948165535086203,381,1
1,0.3317137136684528,382,0
1,1.3058213520087496,383,0
1,0.1818352488502676,384,1
1,0.30197725061648034,385,0
1,0.30551000050267657,387,1
1,0.26235652738886817,388,0
1,0.31538816637550166,389,1
1,0.19383361897654988,394,1
1,0.21351044247714088,396,1
1,0.17299660579085857,397,1
1,0.22275007657505103,400,1
1,0.6824629147359133,404,1
1,0.20466288850968037,405,1
1,0.36817893240054245,406,1
1,0.204239105161338,408,1
1,0.1308365018620067,409,0
1,0.24769671118433606,412,0
1,0.6569268714408711,413,1
1,0.31096440208702975,414,1
1,0.2969875956419013,415,1
1,0.9109360467792764,417,1
1,0.23545587417558003,419,1
1,0.22614866192873076,420,1
1,0.3856380390934816,421,1
1,0.6970211839936332,422,1
1,0.21263739424990719,423,1
1,0.1976713260976943,425,1
1,0.19507066520859428,426,0
1,0.36872874517953064,428,1
1,0.20062312928310222,429,1
1,0.3406129316574984,435,0
1,0.4364182400568074,436,1
1,0.21627095141450153,439,1
1,0.20962623794745225,440,1
1,0.20403876441305502,442,0
1,0.2709240913032258,443,1
1,0.16697800766622936,444,1
1,0.3638104892801761,446,0
1,0.16172954092158315,447,1
1,0.2638687593713327,448,1
1,0.20522252364420665,450,0
1,0.5979512964173346,452,1
1,0.6560685866068984,454,1
1,0.39454822705220294,455,1
1,0.49310686744053317,456,0
1,0.601864253605516,457,1
1,0.19122668610653176,459,0
1,0.19748695685558754,460,1
1,0.3151368403903064,461,1
1,0.9414504792999107,462,1
1,0.3870784394225368,463,0
1,0.16293878922220528,466,1
1,0.41288473714719515,469,1
1,0.2181590443014392,470,1
1,0.19326607816929917,471,1
1,0.2770713189830135,473,1
1,0.19079635382443688,474,1
1,0.25849212628814666,475,1
1,0.31284273526298095,476,0
1,0.6578545986523073,477,0
1,0.20242672396829398,478,1
1,0.4714963717628421,479,1
1,0.28970006717552416,481,1
1,0.4647926457573898,482,0
1,0.2681649658452841,484,1
1,0.5828363704177185,485,1
1,0.17048890261042968,486,0
1,0.3061484509810068,487,1
1,0.1816997494961048,488,0
1,0.23449916790418568,491,1
1,0.22439739124134336,492,1
1,0.4681770319988306,494,0
1,0.43506672932370094,496,1
1,0.2990653286555687,497,1
1,0.31599356650960764,499,1
1,0.25359898486381816,500,1
1,0.20532608957711443,501,0
1,0.5574502994436312,502,0
1,0.49308659086305384,503,1
1,0.29018779654919435,504,1
1,0.32524266166628946,505,1
1,0.20101657506735593,506,1
1,0.3213456749130495,507,1
1,0.7327965051885533,508,0
1,0.24744736907681167,509,1
1,0.16270731329963545,510,1
1,0.14374479771102527,512,1
1,0.2821690316364792,513,0
1,0.14585114898898702,514,1
1,0.20967137103676342,516,0
1,0.1797913760314646,517,1
1,0.4125306678159289,519,1
1,0.2729366930626834,520,1
1,0.13585619869894183,521,1
1,0.32050079518417124,522,0
1,0.21984409008626166,523,1
1,0.3910549978631626,525,1
1,0.29456207380174665,526,1
1,0.2176075961268837,529,0
1,0.15010635285465915,530,0
1,0.5015706022200244,531,1
1,0.44490066729661853,535,0
1,0.1474454450868836,536,1
1,0.3724075415701667,537,1
1,0.7743495606474267,538,1
1,0.34656564106595106,539,1
1,0.31747274011796367,540,1
1,0.19207384263213761,542,1
1,0.24496187276808595,543,1
1,0.17256189043934198,544,0
1,0.3322836255879593,545,1
1,0.2628571365116821,546,1
1,0.3662042176925958,547,1
1,0.5513409423172926,548,1
1,0.21802711951644702,549,1
1,0.5242254518069984,550,1
1,0.20862770297528857,551,1
1,0.31441489130362854,552,1
1,0.6507073280976263,553,1
1,0.20739871909774021,554,1
1,0.33887604495168094,556,1
1,0.3343370540307396,557,0
1,0.19905122981585083,558,1
1,0.2993494024182184,559,1
1,0.20239490501300822,560,0
1,0.23284869576559722,562,1
1,0.2217882860026069,563,1
1,0.21618671065523834,565,1
1,0.3708599948339716,566,1
1,0.2947484151104798,567,1
1,0.24207543515867014,568,1
1,0.2851396965919818,569,1
1,0.19021983738910633,570,0
1,0.15364301417224652,572,1
1,0.18460560715005053,573,1
1,0.2022403957264086,574,1
1,0.24374460921635638,576,1
1,0.19255650158407672,578,1
1,0.40451309669068386,579,1
1,0.546084450090845,580,1
1,0.17585941482467943,581,1
1,0.2681545727197139,583,1
1,0.22104305264135704,584,0
1,0.28072520050690875,585,1
1,0.37453365317051357,586,1
1,0.46043898680603557,587,1
1,0.23357918374786996,588,1
1,0.31668358481006775,589,1
1,0.14501473633063366,590,1
1,0.33380657424298643,591,1
1,0.20455881135307305,592,0
1,0.20818419797842316,595,1
1,0.17648419235610516,598,0
1,0.2761828820175537,599,1
1,0.2960893861281176,600,1
1,0.20137041217197427,601,1
1,0.16584045616149704,602,1
1,0.44431124072624584,603,1
1,0.6068842733929798,604,0
1,0.2603265723916349,605,1
1,0.3900964145397086,606,0
1,0.14435118046915418,607,1
1,0.23729533423519186,608,0
1,0.21761765333886482,609,1
1,0.5967360893624577,610,1
1,0.19753602903730158,612,1
1,0.16745835572807388,613,0
1,0.21603687585636394,614,1
1,0.47676504854057544,615,1
1,0.24099436999715798,616,1
1,0.15729067870197086,617,1
1,0.18812963026115975,618,1
1,0.5404338446957466,619,1
1,0.27088563561251516,620,0
1,0.19094265403597965,622,1
1,0.21612890095796056,623,1
1,0.17941812191745232,624,1
1,0.20724155747903572,625,1
1,0.20391127993727173,626,1
1,0.17236111581371144,627,1
1,0.23065469436100994,629,1
1,0.20968392390583937,630,1
1,0.4689919681783852,631,1
1,0.6709104911627104,632,0
1,0.3589976070841973,633,1
1,0.1700266448104553,634,1
1,0.40088635345481244,635,1
1,0.17490453027082364,636,0
1,1.3884231256680404,637,1
1,0.19509812064750706,638,1
1,0.38101290276722033,639,0
1,0.4161321162267265,640,1
1,0.1911120182610286,643,1
1,0.23880814721302115,644,0
1,0.5208071494555684,645,1
1,0.4420775485952196,646,0
1,0.3591245824080433,647,1
1,0.35714631159768395,648,1
1,0.44747883749293,649,0
1,0.8763784162527989,652,1
1,0.3901953487302607,653,1
1,0.28561973739420304,655,1
1,0.37762124124447205,656,1
1,0.1352204470665355,657,1
1,0.20762434737752455,658,1
1,0.4479247520485262,659,1
1,0.1622145854658338,660,1
1,0.2091027020648304,662,1
1,0.20710996636539242,663,1
1,0.42723376561949267,667,1
1,0.3356293208356123,668,1
1,0.24168226467402235,669,1
1,0.1704633508536131,672,1
1,0.2710724230329402,673,1
1,0.4310058287777108,674,1
1,0.2383756684199453,675,1
1,0.19320943426872303,676,1
1,0.48050266241611966,677,1
1,0.15337160077696232,678,1
1,0.3898565922940038,679,0
1,0.38533763532292675,682,0
1,0.3301876232432602,684,0
1,0.278358031151982,685,1
1,0.26889666438401155,689,1
1,0.540533483192959,690,0
1,0.2335688177253792,691,1
1,0.23700792947604904,692,1
1,0.6146300437167089,693,0
1,0.5199407448823617,694,1
1,0.2268024980052755,695,0
1,0.14028679448072975,696,1
1,0.4872077085541347,697,1
1,0.38374310313082616,698,1
1,0.23878162150403473,699,1
1,0.3375667410087674,700,1
1,0.23862440609164542,701,1
1,0.2118273615056826,702,1
1,0.18526331869010848,704,0
1,0.17606352208637355,705,1
1,0.22031066448175962,706,1
1,0.16715757179870647,708,1
1,0.2539782154690851,709,1
1,0.17738128697214386,710,1
1,0.17146972473842192,711,1
1,0.3322109284389438,712,1
1,0.1264406090138483,713,0
1,0.5404402960544015,714,1
1,0.1386237915011238,715,1
1,0.21115363267100268,717,1
1,0.19476341959092291,718,1
1,0.29357590453210436,719,0
1,0.17520048137124564,720,1
1,0.24993489295915097,721,0
1,0.17338297380216094,722,0
1,0.5777980342694308,723,1
1,0.22595355328464548,724,1
1,0.3518988214822988,725,1
1,0.4628558855114444,726,1
1,0.3093471161719605,727,1
1,0.3416329867803787,729,0
1,0.812476806813427,730,1
1,0.4274741069026942,733,1
1,0.8573846176317114,735,1
1,0.26792084450355613,736,1
1,0.3651916946270401,737,1
1,0.2598056996397567,738,1
1,0.4446637870732407,739,1
1,0.15692188815198777,742,1
1,0.5014182064655729,743,1
1,0.1969151724122955,744,1
1,0.1903014353799563,745,1
1,0.24917349348718187,746,1
1,0.3490387683916167,747,0
1,0.15487046596286363,748,1
1,0.1410531617377894,749,1
1,0.43650905142632884,751,1
1,0.5246828164270969,752,1
1,0.14627336294936033,753,1
1,0.3250301903770985,754,1
1,0.2619604601170101,755,1
1,0.157214308949728,757,1
1,0.49224590201117324,758,0
1,0.20301057995849864,759,0
1,0.46391878095088734,760,1
1,0.13196776461738663,761,1
1,0.2461804550671137,762,0
1,0.2876743262395017,764,1
1,0.2904753442701869,765,1
1,0.5153427022876372,766,0
1,0.1612434087003329,767,1
1,0.2999884305046777,768,1
1,0.4367157205094668,769,0
1,0.23986252548147266,770,1
1,0.5892867145361813,771,1
1,0.2474401409635276,772,1
1,0.19025766310015202,774,1
1,0.29944391836376544,775,1
1,0.3575600519727469,776,1
1,0.15655274026352978,777,1
1,0.3289891258770661,778,1
1,0.3998277495078823,779,1
1,0.3022204548112431,780,1
1,0.1393230445673549,781,1
1,0.17374864685165808,782,1
1,0.20224064519732762,783,1
1,0.17287220733153263,784,0
1,0.30830671518030933,785,1
1,0.7449406518125726,787,1
1,0.4427061458806997,788,1
1,0.16427466840905247,789,1
1,0.1393789955257587,790,1
1,0.35103737854463335,791,1
1,0.21941820296446435,792,1
1,0.17226693680930213,793,1
1,0.1914815895622689,794,1
1,0.24942423265356892,795,0
1,0.23187732952844184,796,0
1,0.41852112839781486,797,1
1,0.14199596452563815,798,1
1,0.16443771590488904,799,1
1,0.16942209377251008,800,1
1,0.2873479686710784,801,0
1,0.5580500103655514,802,1
1,0.2758140656813864,803,1
1,0.2828349877078338,805,1
1,0.26471584452750335,806,1
1,0.19453941352948845,807,0
1,0.34737625975753855,808,1
1,0.32615641216780056,809,1
1,0.23306093542593687,810,1
1,0.4115929988325617,811,1
1,0.2910762241442513,813,1
1,0.3984131600631071,814,1
1,0.6616288951263969,815,1
1,0.24180020898089627,816,0
1,0.16145978547994116,817,1
1,0.2929186574983131,818,1
1,0.15489600396679568,819,1
1,0.1866233213846556,820,1
1,0.26330642668258186,822,1
1,0.32697691363311876,823,1
1,0.3671246850559329,824,1
1,0.36493769601787185,825,1
1,0.3280940663464622,826,1
1,0.21774835134360299,828,1
1,0.351811433960114,829,1
1,0.1885372356186106,830,1
1,0.2636554062200549,831,0
1,0.4402892450027864,832,0
1,0.16668453912118109,835,1
1,0.5058211205056894,838,1
1,0.2713262318049742,839,1
1,0.34395712253163097,840,1
1,0.24863292574201484,841,1
1,0.21927659040320818,842,1
1,0.19273959425440623,843,0
1,0.18017860857571744,844,1
1,0.2197866163658134,846,0
1,0.27104340570852425,847,1
1,0.3367504373321227,848,1
1,0.37815214315422974,849,1
1,0.3273565467858984,850,1
1,0.6742009970415226,851,1
1,0.33550924518555175,853,1
1,0.3499918200255901,854,1
1,0.27456781206262815,855,1
1,0.15647903759397888,856,1
1,0.15338064961115733,858,1
1,0.4307893882609218,860,1
1,0.6140812726973723,862,1
1,0.2583811211109757,863,0
1,0.24481014302167303,865,1
1,0.1463423685929255,866,0
1,0.50335063400175,867,1
1,0.27666348166964455,868,1
1,0.5279444486652727,869,1
1,0.184047074206425,870,1
1,0.17477056824546872,871,0
1,0.19757230289740907,872,1
1,0.2093394783646987,873,0
1,0.24166607893537942,875,0
1,0.6621646489159025,876,1
1,0.2510667752980445,877,1
1,0.1419131197665662,879,1
1,0.36632145543225414,880,0
1,0.42795223109634123,881,1
1,0.3318258448973134,883,1
1,0.3103022208223761,885,1
1,0.24276884999565052,886,1
1,0.47204169302356624,888,0
1,0.7570684481696591,889,1
1,0.6641420569971548,890,1
1,0.26261737254969303,891,1
1,0.20717629969863793,892,1
1,0.6004510832813762,893,1
1,0.29728128784233093,894,1
1,0.36851854802307527,895,1
1,0.18310865810134366,896,1
1,0.21951053458088918,897,0
1,0.7314769789158273,898,0
1,0.49045163276618586,900,1
1,0.1797869975598162,901,0
1,0.30350023239723023,902,1
1,0.3637627120227854,903,1
1,0.4035109800809121,904,1
1,0.14828614355820124,905,1
1,0.3479973429483278,907,1
1,0.38250758967305315,909,1
1,0.15127735725601274,910,1
1,0.3420201065758183,912,1
1,0.14962566518774117,914,1
1,0.4691044846124415,915,1
1,0.25750375310785084,916,1
1,0.15931834701278477,917,1
1,0.3644643862894523,918,1
1,0.25565218420452857,919,0
1,0.1784299914649795,920,1
1,0.27742200895181435,921,1
1,0.21690844707455026,922,1
1,0.17642327484693618,923,0
1,0.25063644965106513,924,1
1,0.30957594589899684,925,0
1,0.933981293174328,926,1
1,0.5512787320294674,927,1
1,0.17306035764809272,928,0
1,0.3581558896869928,931,0
1,0.2289178326868047,932,1
1,0.4409745609635814,933,1
1,0.1990410345625162,934,1
1,0.29210997079131445,935,0
1,0.23367034341585372,936,1
1,0.31015321178503574,940,0
1,0.1863414620537674,941,0
1,0.18511807090058316,942,1
1,0.32583259421541505,943,1
1,0.263186651682068,944,0
1,0.42044300200067475,945,1
1,0.6086753751943674,948,1
1,0.304773944781279,950,1
1,0.3018084614590782,951,1
1,0.3266401183482147,953,1
1,0.1402547095175898,955,1
1,0.28824622837086566,957,1
1,0.34393520550933543,958,1
1,0.37606491534130704,960,0
1,0.3817473187594564,961,1
1,1.1346335908880145,962,1
1,0.20305736448180547,963,1
1,0.17873873851701677,964,0
1,0.17665328670915556,965,1
1,0.14261045996789962,966,1
1,0.3351311911620303,967,0
1,0.21668317434296636,968,1
1,0.45494265525618344,969,1
1,0.26549928574651904,971,1
1,0.27487982671215827,972,1
1,0.3421254141286915,973,1
1,0.3472019766512189,974,1
1,0.283363151778266,975,1
1,0.22310830388833722,977,0
1,0.14454959743000026,978,0
1,0.4550767683487767,979,1
1,0.2936221067298461,981,1
1,0.21161503568932533,982,0
1,1.5756532702876558,983,1
1,0.20605174710989768,984,1
1,0.18078276081968947,985,0
1,0.4652479670137747,987,0
1,0.7085804723270851,989,0
1,0.20547184419757866,991,1
1,0.24094597137769547,992,1
1,0.24898820229274712,993,0
1,0.16935142228399885,997,0
1,0.4968685045498375,998,1
0,0.13049798590345585,0,1
0,0.21294397908607943,1,0
0,0.28431282191074425,2,0
0,0.4312200013098222,3,0
0,0.5427540045955226,6,0
0,0.18215450792371612,7,1
0,0.4702360692152596,9,0
0,0.5921569962572426,10,0
0,0.2931047378851157,14,0
0,0.4793088569333821,23,0
0,0.40615045652159854,25,0
0,0.17002503715490658,28,1
0,0.4013085798391671,30,0
0,0.23292738663556856,41,1
0,0.19605403671866117,42,0
0,0.5027444966692389,47,1
0,0.1484358193735429,48,0
0,0.14056764114795328,50,0
0,0.38843860172715683,59,0
0,0.6098798028178427,60,0
0,0.3659623593781376,78,0
0,0.14538659411107258,80,0
0,0.8011550694040253,89,0
0,0.15061546603281517,90,1
0,0.3226893246412028,91,0
0,0.16845615956651816,92,1
0,0.3438760333161217,95,0
0,0.2737071430028992,97,0
0,0.33793550787797155,101,0
0,0.5654585844280309,108,1
0,0.35667058075190505,109,0
0,0.2466397832957048,117,0
0,0.6004109296558422,118,0
0,0.1511148091605632,119,0
0,0.1696838909767866,122,1
0,0.25863628145494255,127,0
0,0.47309067935243876,131,0
0,0.21314032439077257,139,0
0,0.3333234163901606,144,0
0,0.20566042168654253,145,0
0,0.23722663523057985,148,0
0,0.39453993120406716,152,0
0,0.45818890166025783,158,0
0,0.2368213694437138,163,0
0,0.1780438734117622,166,0
0,0.6269087097768615,167,1
0,0.16519851257845408,168,1
0,0.5697190851679705,173,0
0,0.2257973779603244,174,0
0,0.1540705642039537,175,0
0,0.19471694065719758,181,0
0,0.2602075500857688,189,0
0,0.23188027311510728,190,0
0,0.34098275710320003,193,0
0,0.2192598979658018,203,0
0,0.5260030979921666,204,0
0,0.4666279641051889,211,1
0,0.33942068049942264,213,0
0,0.2632288445342734,216,0
0,0.5772550228446245,220,1
0,0.8531546679331665,222,0
0,0.27478329171966376,225,0
0,0.17277153317479899,227,0
0,0.3116471820482589,228,1
0,0.18465315857118858,232,0
0,0.35351309326501523,233,1
0,0.3244478014925103,239,0
0,0.17312276842688812,245,1
0,0.36868434759966506,256,1
0,0.8283256882914061,260,0
0,0.48218892273261993,261,1
0,0.58055750048241,263,0
0,0.4514584817190408,266,1
0,0.14544604340700307,268,0
0,0.7115236770153288,277,1
0,0.17565406373967196,278,0
0,0.6537894805976348,280,1
0,0.9700266965584481,282,1
0,0.8767835411120579,284,0
0,0.18870905968674068,290,1
0,0.1329583403292709,294,0
0,0.26844062148233183,298,1
0,0.3991431727907977,301,0
0,0.17029324087234077,303,0
0,0.3824313015605747,305,0
0,0.25346437034559344,308,0
0,0.2807785198760735,312,0
0,0.19623821495734806,315,0
0,0.4901249399391858,317,1
0,0.18536599485209138,323,0
0,0.6579381435271734,324,0
0,0.33949427822998235,325,0
0,0.31074062510931855,332,0
0,0.673953484145362,336,0
0,0.24241409668390368,339,1
0,0.4109320535512513,342,1
0,0.17856537091619273,346,0
0,0.20200752505532993,347,0
0,0.4669282967801518,354,0
0,0.6146638526777504,358,0
0,0.30815681011835583,367,0
0,0.45946267391802653,368,0
0,0.4955726392874569,373,0
0,0.47227600525547153,374,0
0,0.3717243092669116,376,0
0,0.4959218414095976,377,0
0,0.23014477034788072,386,0
0,0.17262027967298366,390,1
0,0.7740832525553794,391,0
0,0.6693228650000242,392,0
0,0.27843195025985423,393,0
0,0.6719783451449639,395,0
0,0.5335531951976895,398,0
0,0.3324004747485625,399,0
0,0.2039951734453851,401,0
0,0.21653347138137624,402,0
0,0.45368332464182437,403,1
0,0.1714332671355221,407,0
0,0.2344440410451396,410,0
0,0.27105364876278415,411,0
0,0.2461445434683398,416,1
0,0.2823746126705742,418,0
0,0.48497015696198575,424,1
0,1.6624668321121785,427,0
0,0.21936300332579162,430,0
0,1.6877031394236939,431,0
0,0.28037740647418463,432,1
0,0.3678383152391489,433,0
0,0.280652521463006,434,0
0,0.289255993629157,437,0
0,0.1518201458291415,438,1
0,0.6003232472100359,441,0
0,0.3619304148490339,445,0
0,0.1456385304806216,449,1
0,0.4121446200414005,451,0
0,1.1340760945473303,453,1
0,0.9352631974194092,458,1
0,0.37075060923945946,464,1
0,0.7181235155478296,465,0
0,0.2715971339551766,467,0
0,0.18641276590446276,468,0
0,0.4984032712606359,472,0
0,0.16385526621422963,480,0
0,0.1698957036129145,483,0
0,0.3248044305453357,489,0
0,0.18875603912840155,490,0
0,0.20918456642482441,493,0
0,0.2513401239513642,495,0
0,0.2170669664520739,498,0
0,0.14005279953833805,511,0
0,0.42728268375468836,515,1
0,0.6393243599611891,518,0
0,0.3625813857064424,524,0
0,0.28446790345745177,527,0
0,0.6159641369552733,528,1
0,0.1771588966218558,532,0
0,0.1912944031189312,533,0
0,0.1541499129417181,534,0
0,0.39653338558075557,541,0
0,0.618921083220942,555,0
0,0.4212964928284264,561,0
0,0.16711761818859294,564,0
0,0.8732822141058216,571,0
0,0.32450238330886183,575,0
0,0.197810713701577,577,0
0,0.32177536256439865,582,0
0,1.176033037872938,593,1
0,0.34677866040690875,594,1
0,0.20018292618890143,596,0
0,0.5203050012890804,597,0
0,0.2729647809965634,611,0
0,0.1508900266313984,621,0
0,0.4222741244613406,628,0
0,0.17190729012816686,641,0
0,0.17149469331777611,642,1
0,0.35302187217182723,650,0
0,0.28497349286923823,651,0
0,0.361667403225995,654,0
0,0.2908039826920441,661,0
0,0.25670406206607366,664,0
0,0.24686923950982953,665,0
0,0.30066181071524634,666,0
0,0.677009031633649,670,0
0,0.261440453648051,671,0
0,0.1556343681897343,680,0
0,0.3236571224235538,681,0
0,0.24860212094838285,683,0
0,0.5562268676796553,686,0
0,0.21184252353711974,687,0
0,0.17643272283297895,688,0
0,0.64911930610698,703,0
0,0.28010345327540564,707,0
0,0.18913732715156328,716,0
0,0.2801679556863692,728,1
0,0.14730727929776055,731,0
0,0.3104426210869713,732,0
0,0.7075863677975627,734,0
0,0.6491387528480317,740,0
0,0.1970042472153355,741,0
0,0.30312559664830063,750,0
0,0.45703407749919034,756,0
0,0.3435722451489429,763,1
0,0.18762771401415002,773,0
0,1.9681419722803248,786,0
0,0.43159667261117596,804,1
0,0.2013846097325458,812,0
0,0.15319947746163853,821,0
0,0.15116526805647457,827,0
0,0.2782272577320102,833,1
0,0.16346336450764776,834,0
0,0.26278708320047484,836,0
0,0.16562508077288696,837,0
0,0.3571656952772213,845,1
0,0.6154591428989398,852,1
0,0.31464648508943904,857,1
0,0.2748892359054018,859,1
0,0.3387096293386298,861,0
0,0.148088953265042,864,0
0,0.35597425792695203,874,0
0,0.20894965346915217,878,0
0,0.48399200382654595,882,0
0,0.36016665321076724,884,0
0,0.1680613256545218,887,0
0,0.42482669704690457,899,0
0,0.27561600622078997,906,0
0,0.4183393533694648,908,0
0,0.17762513228604782,911,1
0,0.2966707602484502,913,0
0,0.20804885785146787,929,0
0,0.28412786209083896,930,0
0,0.20955067184878384,937,1
0,0.5000329972129345,938,0
0,0.23349528320867607,939,0
0,0.230220331614452,946,0
0,0.5481521446915658,947,0
0,0.5267113537041266,949,0
0,0.31550245357042783,952,0
0,0.35896979687103947,954,0
0,0.24691606818886935,956,1
0,0.22589486941157944,959,1
0,0.17313712528655278,970,1
0,0.16843416108104803,976,0
0,0.2455839449003152,980,0
0,0.15643179326441858,986,0
0,0.47837669082240586,988,0
0,0.22436285048696103,990,0
0,0.42500970845869324,994,0
0,0.16836782890960933,995,0
0,0.22632636789193583,996,0
0,0.5601683543250822,999,1
